# == Filter Data - Lambda 9 Spectrophotometer ==
# Kitt Peak National Observatory - NOAO
# ------------------------------------------------
# Filter: K1041 .1NM/15NMPERMIN/0.5S   300-500NM
# Date: 08/27/04   Time: 13:57:08  Operator: HS
# cwl=  3479.17A  fwhm= 562.72A  Tmax= 81.47% at  3478.00A
# Tcutoff=  2.00 %  Slitsize =  1 A
# fwhm spans 3197.81A to 3760.53A
# 90%  spans 3291.22A to 3650.65A
# bw90 is  0.639; Tmin90/Tmax is  0.870
# No data smoothing
# 
# Npts= 1001     Disp=  2.00A/Interval
3000.0 -0.0016
3002.0 0.0011
3004.0 0.00215
3006.0 0.0017
3008.0 0.0029
3010.0 -0.0002
3012.0 0.00015
3014.0 0.00345
3016.0 -0.00195
3018.0 0.00045
3020.0 0.00135
3022.0 0.00155
3024.0 0.0004
3026.0 -0.00015
3028.0 0.0
3030.0 0.0031
3032.0 -0.0019
3034.0 0.00375
3036.0 0.0018
3038.0 0.00175
3040.0 0.0004
3042.0 0.00095
3044.0 0.00235
3046.0 0.00055
3048.0 -0.0013
3050.0 5e-05
3052.0 -0.0003
3054.0 0.00015
3056.0 0.00225
3058.0 -0.0012
3060.0 -0.00045
3062.0 0.00295
3064.0 0.0002
3066.0 0.0004
3068.0 -0.0011
3070.0 0.003
3072.0 0.00325
3074.0 0.00095
3076.0 0.00085
3078.0 0.00085
3080.0 -0.001
3082.0 -0.0009
3084.0 0.0006
3086.0 0.00035
3088.0 0.00375
3090.0 0.0002
3092.0 0.001
3094.0 0.001
3096.0 0.0003
3098.0 -0.00125
3100.0 0.00215
3102.0 -0.00125
3104.0 0.00015
3106.0 0.00225
3108.0 -0.0005
3110.0 0.0011
3112.0 0.00105
3114.0 -0.0011
3116.0 0.0018
3118.0 5e-05
3120.0 0.00155
3122.0 -0.0001
3124.0 0.00075
3126.0 0.00095
3128.0 0.0019
3130.0 0.00105
3132.0 -0.00085
3134.0 0.0006
3136.0 0.0019
3138.0 0.00145
3140.0 -0.00135
3142.0 0.00315
3144.0 0.00095
3146.0 0.0013
3148.0 0.00235
3150.0 -0.00115
3152.0 0.00065
3154.0 -0.00155
3156.0 0.00265
3158.0 0.0001
3160.0 -0.0011
3162.0 0.00095
3164.0 0.00385
3166.0 0.0003
3168.0 -0.0007
3170.0 0.00115
3172.0 -0.00095
3174.0 0.00205
3176.0 0.00125
3178.0 0.0022
3180.0 -0.0008
3182.0 0.0056
3184.0 0.00425
3186.0 0.0034
3188.0 0.00945
3190.0 0.01935
3192.0 0.0429
3194.0 0.10455
3196.0 0.246
3198.0 0.42385
3200.0 0.4964
3202.0 0.49695
3204.0 0.47725
3206.0 0.4965
3208.0 0.52595
3210.0 0.53935
3212.0 0.58665
3214.0 0.5971
3216.0 0.6269
3218.0 0.6411
3220.0 0.6355
3222.0 0.64135
3224.0 0.6463
3226.0 0.6525
3228.0 0.6558
3230.0 0.6802
3232.0 0.6947
3234.0 0.6938
3236.0 0.70115
3238.0 0.7081
3240.0 0.69905
3242.0 0.6914
3244.0 0.71495
3246.0 0.70335
3248.0 0.7019
3250.0 0.69155
3252.0 0.6694
3254.0 0.6861
3256.0 0.69265
3258.0 0.69035
3260.0 0.694
3262.0 0.68775
3264.0 0.70465
3266.0 0.6939
3268.0 0.6916
3270.0 0.6919
3272.0 0.67855
3274.0 0.68345
3276.0 0.67835
3278.0 0.6908
3280.0 0.67785
3282.0 0.69475
3284.0 0.69875
3286.0 0.7184
3288.0 0.715
3290.0 0.71845
3292.0 0.7427
3294.0 0.74735
3296.0 0.73945
3298.0 0.752
3300.0 0.75505
3302.0 0.7598
3304.0 0.76025
3306.0 0.76225
3308.0 0.7617
3310.0 0.74405
3312.0 0.7378
3314.0 0.73395
3316.0 0.73995
3318.0 0.74535
3320.0 0.72245
3322.0 0.7387
3324.0 0.73805
3326.0 0.73425
3328.0 0.73895
3330.0 0.74495
3332.0 0.74585
3334.0 0.73945
3336.0 0.75195
3338.0 0.75435
3340.0 0.7481
3342.0 0.75355
3344.0 0.7494
3346.0 0.7483
3348.0 0.7507
3350.0 0.73985
3352.0 0.74325
3354.0 0.73645
3356.0 0.7364
3358.0 0.7529
3360.0 0.73995
3362.0 0.7386
3364.0 0.73785
3366.0 0.7374
3368.0 0.7501
3370.0 0.7801
3372.0 0.76785
3374.0 0.7705
3376.0 0.77925
3378.0 0.7736
3380.0 0.7792
3382.0 0.7764
3384.0 0.7849
3386.0 0.7658
3388.0 0.76225
3390.0 0.7592
3392.0 0.7622
3394.0 0.75065
3396.0 0.76
3398.0 0.7392
3400.0 0.74875
3402.0 0.7206
3404.0 0.7132
3406.0 0.7202
3408.0 0.7153
3410.0 0.71205
3412.0 0.71595
3414.0 0.7175
3416.0 0.70875
3418.0 0.71155
3420.0 0.72545
3422.0 0.7242
3424.0 0.7454
3426.0 0.73105
3428.0 0.7504
3430.0 0.7503
3432.0 0.75385
3434.0 0.75755
3436.0 0.76135
3438.0 0.776
3440.0 0.7785
3442.0 0.7707
3444.0 0.78515
3446.0 0.78265
3448.0 0.78725
3450.0 0.78715
3452.0 0.7825
3454.0 0.78545
3456.0 0.7899
3458.0 0.79155
3460.0 0.7971
3462.0 0.7862
3464.0 0.7939
3466.0 0.80195
3468.0 0.79135
3470.0 0.81055
3472.0 0.79655
3474.0 0.8061
3476.0 0.8035
3478.0 0.81465
3480.0 0.79505
3482.0 0.79
3484.0 0.7975
3486.0 0.799
3488.0 0.79755
3490.0 0.79125
3492.0 0.79615
3494.0 0.80165
3496.0 0.7952
3498.0 0.79225
3500.0 0.799
3502.0 0.78905
3504.0 0.7926
3506.0 0.8088
3508.0 0.80755
3510.0 0.79615
3512.0 0.80775
3514.0 0.7929
3516.0 0.81305
3518.0 0.8022
3520.0 0.79515
3522.0 0.7844
3524.0 0.79345
3526.0 0.78655
3528.0 0.79125
3530.0 0.79045
3532.0 0.80255
3534.0 0.7925
3536.0 0.78985
3538.0 0.80015
3540.0 0.7866
3542.0 0.7928
3544.0 0.79685
3546.0 0.7881
3548.0 0.78845
3550.0 0.78345
3552.0 0.78135
3554.0 0.7963
3556.0 0.796
3558.0 0.79355
3560.0 0.7821
3562.0 0.7931
3564.0 0.77665
3566.0 0.80205
3568.0 0.7986
3570.0 0.78375
3572.0 0.778
3574.0 0.79335
3576.0 0.78785
3578.0 0.7853
3580.0 0.7838
3582.0 0.7856
3584.0 0.7915
3586.0 0.7966
3588.0 0.7813
3590.0 0.76925
3592.0 0.76295
3594.0 0.7709
3596.0 0.7708
3598.0 0.7687
3600.0 0.75865
3602.0 0.7657
3604.0 0.75795
3606.0 0.7502
3608.0 0.7587
3610.0 0.75305
3612.0 0.7585
3614.0 0.76725
3616.0 0.75495
3618.0 0.76685
3620.0 0.76015
3622.0 0.75485
3624.0 0.74525
3626.0 0.7517
3628.0 0.7645
3630.0 0.7657
3632.0 0.7548
3634.0 0.7488
3636.0 0.7409
3638.0 0.74845
3640.0 0.7336
3642.0 0.73555
3644.0 0.74465
3646.0 0.72175
3648.0 0.72265
3650.0 0.73965
3652.0 0.71975
3654.0 0.7142
3656.0 0.7149
3658.0 0.70865
3660.0 0.6992
3662.0 0.6916
3664.0 0.69555
3666.0 0.6929
3668.0 0.69935
3670.0 0.68215
3672.0 0.68005
3674.0 0.68915
3676.0 0.69995
3678.0 0.6746
3680.0 0.69135
3682.0 0.6916
3684.0 0.6732
3686.0 0.6981
3688.0 0.68115
3690.0 0.6744
3692.0 0.67825
3694.0 0.66775
3696.0 0.66295
3698.0 0.6629
3700.0 0.66415
3702.0 0.6637
3704.0 0.66095
3706.0 0.63855
3708.0 0.636
3710.0 0.6263
3712.0 0.6154
3714.0 0.6189
3716.0 0.59395
3718.0 0.585
3720.0 0.5766
3722.0 0.5619
3724.0 0.5559
3726.0 0.5478
3728.0 0.54005
3730.0 0.537
3732.0 0.5068
3734.0 0.4913
3736.0 0.4906
3738.0 0.47645
3740.0 0.47345
3742.0 0.47185
3744.0 0.4451
3746.0 0.44205
3748.0 0.4361
3750.0 0.4249
3752.0 0.42375
3754.0 0.4104
3756.0 0.4116
3758.0 0.4099
3760.0 0.4107
3762.0 0.39805
3764.0 0.3939
3766.0 0.38675
3768.0 0.38965
3770.0 0.38075
3772.0 0.36955
3774.0 0.36395
3776.0 0.36905
3778.0 0.35195
3780.0 0.36145
3782.0 0.3739
3784.0 0.3455
3786.0 0.33985
3788.0 0.3697
3790.0 0.34435
3792.0 0.33125
3794.0 0.33935
3796.0 0.33265
3798.0 0.33975
3800.0 0.33015
3802.0 0.32725
3804.0 0.3325
3806.0 0.3296
3808.0 0.319
3810.0 0.32245
3812.0 0.33405
3814.0 0.31895
3816.0 0.32225
3818.0 0.3178
3820.0 0.3137
3822.0 0.31905
3824.0 0.31085
3826.0 0.3067
3828.0 0.30025
3830.0 0.29745
3832.0 0.29065
3834.0 0.2807
3836.0 0.2689
3838.0 0.2594
3840.0 0.24965
3842.0 0.2478
3844.0 0.23345
3846.0 0.2237
3848.0 0.21245
3850.0 0.2088
3852.0 0.193
3854.0 0.18925
3856.0 0.1705
3858.0 0.1701
3860.0 0.15705
3862.0 0.1481
3864.0 0.14435
3866.0 0.13495
3868.0 0.1292
3870.0 0.12505
3872.0 0.11465
3874.0 0.1068
3876.0 0.10215
3878.0 0.096
3880.0 0.09785
3882.0 0.091
3884.0 0.08555
3886.0 0.08605
3888.0 0.08115
3890.0 0.08255
3892.0 0.07515
3894.0 0.0745
3896.0 0.0697
3898.0 0.0679
3900.0 0.06905
3902.0 0.0637
3904.0 0.0619
3906.0 0.0621
3908.0 0.0575
3910.0 0.0569
3912.0 0.05705
3914.0 0.0555
3916.0 0.05115
3918.0 0.0503
3920.0 0.05085
3922.0 0.0472
3924.0 0.0447
3926.0 0.04115
3928.0 0.0404
3930.0 0.03795
3932.0 0.03425
3934.0 0.0341
3936.0 0.03305
3938.0 0.03105
3940.0 0.02735
3942.0 0.0244
3944.0 0.02145
3946.0 0.02265
3948.0 0.01875
3950.0 0.01625
3952.0 0.0143
3954.0 0.01335
3956.0 0.01285
3958.0 0.0109
3960.0 0.0093
3962.0 0.0106
3964.0 0.0068
3966.0 0.0074
3968.0 0.00745
3970.0 0.0053
3972.0 0.0059
3974.0 0.00455
3976.0 0.00325
3978.0 0.0037
3980.0 0.0038
3982.0 0.00505
3984.0 0.00215
3986.0 0.00325
3988.0 0.00225
3990.0 0.0035
3992.0 0.00295
3994.0 0.00415
3996.0 0.0023
3998.0 0.0025
4000.0 -0.0007
4002.0 0.00075
4004.0 0.00025
4006.0 -0.00015
4008.0 0.002
4010.0 0.00195
4012.0 0.00065
4014.0 -0.00015
4016.0 -0.00025
4018.0 0.0006
4020.0 0.0031
4022.0 0.0005
4024.0 0.0023
4026.0 0.0011
4028.0 0.00095
4030.0 0.00095
4032.0 -0.0006
4034.0 -0.00095
4036.0 0.0003
4038.0 -0.00105
4040.0 0.00125
4042.0 0.00225
4044.0 -0.0007
4046.0 -5e-05
4048.0 -0.00045
4050.0 0.00235
4052.0 -0.0007
4054.0 0.00045
4056.0 0.001
4058.0 0.00065
4060.0 0.00135
4062.0 -0.0005
4064.0 0.00045
4066.0 0.00065
4068.0 5e-05
4070.0 0.0015
4072.0 0.0001
4074.0 -0.00025
4076.0 0.00035
4078.0 -0.0008
4080.0 -0.0011
4082.0 -0.0001
4084.0 -5e-05
4086.0 0.0007
4088.0 -0.00135
4090.0 0.002
4092.0 0.0005
4094.0 0.0007
4096.0 0.00075
4098.0 -5e-05
4100.0 -0.0002
4102.0 -0.0004
4104.0 -0.00015
4106.0 0.0009
4108.0 -0.0005
4110.0 0.00055
4112.0 0.00145
4114.0 -0.0005
4116.0 0.00045
4118.0 -0.00055
4120.0 -5e-05
4122.0 -0.0003
4124.0 0.00095
4126.0 0.00085
4128.0 0.00075
4130.0 0.00015
4132.0 0.0004
4134.0 0.00135
4136.0 -5e-05
4138.0 0.00095
4140.0 0.00115
4142.0 0.0009
4144.0 -0.0009
4146.0 -0.00095
4148.0 -0.00025
4150.0 0.0015
4152.0 5e-05
4154.0 0.00085
4156.0 0.0015
4158.0 -5e-05
4160.0 0.0006
4162.0 0.0
4164.0 0.0018
4166.0 0.0001
4168.0 -0.0018
4170.0 -0.00105
4172.0 0.00095
4174.0 0.00055
4176.0 -0.001
4178.0 0.00045
4180.0 -0.00035
4182.0 0.0008
4184.0 -0.00015
4186.0 -0.00095
4188.0 -0.0007
4190.0 -5e-05
4192.0 0.0002
4194.0 0.002
4196.0 0.00035
4198.0 0.00085
4200.0 0.0008
4202.0 -0.00055
4204.0 0.0007
4206.0 0.001
4208.0 0.00075
4210.0 -0.0001
4212.0 -0.0005
4214.0 -0.0005
4216.0 -0.00015
4218.0 -5e-05
4220.0 -0.00035
4222.0 -5e-05
4224.0 0.0007
4226.0 0.00065
4228.0 -0.0006
4230.0 0.00045
4232.0 -0.00135
4234.0 0.00075
4236.0 0.00045
4238.0 -5e-05
4240.0 0.0013
4242.0 -0.0005
4244.0 0.0012
4246.0 0.00055
4248.0 0.00075
4250.0 0.00215
4252.0 -0.00055
4254.0 0.00075
4256.0 -0.00025
4258.0 0.001
4260.0 -0.0004
4262.0 0.00065
4264.0 0.00035
4266.0 -0.0004
4268.0 0.0007
4270.0 -0.0001
4272.0 -0.00055
4274.0 -0.0009
4276.0 -0.0002
4278.0 -0.0011
4280.0 -0.00015
4282.0 0.0014
4284.0 5e-05
4286.0 -0.001
4288.0 0.0009
4290.0 0.0005
4292.0 0.0001
4294.0 -0.0001
4296.0 -0.001
4298.0 -0.0001
4300.0 0.00095
4302.0 0.00145
4304.0 0.002
4306.0 -0.00015
4308.0 0.0006
4310.0 0.0013
4312.0 5e-05
4314.0 0.00085
4316.0 0.00065
4318.0 0.00085
4320.0 0.00065
4322.0 0.0
4324.0 0.0013
4326.0 0.0029
4328.0 -0.0001
4330.0 0.00045
4332.0 -0.00015
4334.0 0.0002
4336.0 0.0003
4338.0 0.0004
4340.0 0.00015
4342.0 -0.00025
4344.0 -0.00045
4346.0 0.0007
4348.0 -0.00025
4350.0 0.0013
4352.0 -5e-05
4354.0 0.00165
4356.0 0.0014
4358.0 -0.0011
4360.0 -0.0009
4362.0 -0.00035
4364.0 -0.001
4366.0 0.00115
4368.0 0.0001
4370.0 0.0004
4372.0 -5e-05
4374.0 0.00085
4376.0 0.00025
4378.0 -0.0009
4380.0 0.00025
4382.0 0.0002
4384.0 -0.00045
4386.0 0.0001
4388.0 0.0016
4390.0 0.0004
4392.0 0.00165
4394.0 0.00135
4396.0 0.00155
4398.0 -0.00035
4400.0 0.0007
4402.0 -0.0005
4404.0 0.0005
4406.0 -0.00025
4408.0 0.0005
4410.0 0.00055
4412.0 0.0027
4414.0 -0.0006
4416.0 0.00015
4418.0 5e-05
4420.0 -0.0001
4422.0 -5e-05
4424.0 -0.0006
4426.0 -0.0002
4428.0 -0.0003
4430.0 -0.00055
4432.0 0.00125
4434.0 0.0004
4436.0 -0.0003
4438.0 0.0004
4440.0 -5e-05
4442.0 0.00095
4444.0 -0.0009
4446.0 -0.0015
4448.0 -0.00035
4450.0 0.0009
4452.0 0.0005
4454.0 -0.00145
4456.0 0.00145
4458.0 -0.00045
4460.0 0.0
4462.0 -0.0001
4464.0 -5e-05
4466.0 -0.0002
4468.0 0.001
4470.0 0.00045
4472.0 -0.00085
4474.0 -0.001
4476.0 -0.0004
4478.0 0.0004
4480.0 -0.00025
4482.0 -0.00055
4484.0 -0.00055
4486.0 -0.0004
4488.0 0.0002
4490.0 -0.0007
4492.0 0.00025
4494.0 -0.00105
4496.0 -0.0007
4498.0 -0.0004
4500.0 0.00075
4502.0 0.00015
4504.0 0.0005
4506.0 -0.00035
4508.0 0.00075
4510.0 0.0007
4512.0 0.0004
4514.0 -0.00015
4516.0 -0.00025
4518.0 0.0004
4520.0 -5e-05
4522.0 -0.0002
4524.0 5e-05
4526.0 -0.0003
4528.0 0.0001
4530.0 0.00025
4532.0 0.0008
4534.0 0.0006
4536.0 -0.00085
4538.0 -0.00075
4540.0 0.0008
4542.0 0.0006
4544.0 0.0002
4546.0 0.0005
4548.0 -0.0005
4550.0 0.0001
4552.0 0.0003
4554.0 -0.00015
4556.0 0.00075
4558.0 -0.001
4560.0 -0.00035
4562.0 0.00025
4564.0 0.00045
4566.0 0.0009
4568.0 0.0001
4570.0 -0.00015
4572.0 5e-05
4574.0 -0.0001
4576.0 -0.0006
4578.0 0.00075
4580.0 -0.00085
4582.0 -0.00035
4584.0 0.0005
4586.0 -0.0003
4588.0 -0.00055
4590.0 -0.0004
4592.0 0.00015
4594.0 -0.00045
4596.0 0.0004
4598.0 -0.0002
4600.0 0.00065
4602.0 0.0009
4604.0 0.0008
4606.0 -0.0005
4608.0 0.0004
4610.0 0.0004
4612.0 -0.0005
4614.0 0.0002
4616.0 0.00075
4618.0 0.00015
4620.0 0.0004
4622.0 0.00035
4624.0 0.00085
4626.0 -0.0001
4628.0 0.0007
4630.0 -0.0001
4632.0 -0.0001
4634.0 0.0009
4636.0 0.0005
4638.0 0.00085
4640.0 -0.00055
4642.0 0.0004
4644.0 0.00015
4646.0 -0.00015
4648.0 0.00025
4650.0 0.00035
4652.0 0.00035
4654.0 -0.0003
4656.0 -0.0001
4658.0 -0.00025
4660.0 0.0004
4662.0 -5e-05
4664.0 -0.0001
4666.0 0.00015
4668.0 0.0
4670.0 -5e-05
4672.0 -0.00015
4674.0 0.00065
4676.0 -5e-05
4678.0 0.0003
4680.0 0.0001
4682.0 0.00015
4684.0 -0.0005
4686.0 -5e-05
4688.0 0.0001
4690.0 -5e-05
4692.0 -0.0001
4694.0 0.0002
4696.0 -0.0001
4698.0 5e-05
4700.0 -0.0001
4702.0 -0.0003
4704.0 0.0002
4706.0 -0.00045
4708.0 0.00065
4710.0 0.00035
4712.0 5e-05
4714.0 -0.00025
4716.0 -0.0005
4718.0 0.00015
4720.0 -0.0003
4722.0 -5e-05
4724.0 -0.00035
4726.0 0.0
4728.0 -0.00045
4730.0 0.00055
4732.0 0.00015
4734.0 0.0003
4736.0 0.00035
4738.0 0.0
4740.0 0.00045
4742.0 0.00015
4744.0 0.0001
4746.0 0.0006
4748.0 -0.0005
4750.0 -0.001
4752.0 -0.00055
4754.0 0.00105
4756.0 -0.0001
4758.0 0.00095
4760.0 -0.001
4762.0 0.0004
4764.0 -0.00035
4766.0 -0.00035
4768.0 0.0005
4770.0 -0.00035
4772.0 -0.00055
4774.0 0.00065
4776.0 0.0004
4778.0 5e-05
4780.0 0.0
4782.0 -0.0002
4784.0 -0.0001
4786.0 -0.0007
4788.0 -0.0004
4790.0 0.0007
4792.0 -0.0004
4794.0 -0.0004
4796.0 0.0001
4798.0 0.0004
4800.0 -0.0001
4802.0 -0.0001
4804.0 -0.00135
4806.0 -0.0008
4808.0 0.00075
4810.0 -0.0011
4812.0 0.00045
4814.0 0.00015
4816.0 0.00085
4818.0 0.0005
4820.0 -0.00035
4822.0 0.00045
4824.0 0.00065
4826.0 -0.00095
4828.0 0.0004
4830.0 0.0001
4832.0 0.0005
4834.0 -0.00075
4836.0 -0.00045
4838.0 0.0001
4840.0 0.0
4842.0 -0.0002
4844.0 0.0002
4846.0 0.0009
4848.0 -0.00045
4850.0 -0.0002
4852.0 -0.00035
4854.0 0.00055
4856.0 -5e-05
4858.0 0.00015
4860.0 0.00065
4862.0 0.00055
4864.0 5e-05
4866.0 0.00065
4868.0 0.00045
4870.0 -0.0004
4872.0 0.00095
4874.0 -0.0006
4876.0 5e-05
4878.0 -0.0006
4880.0 -5e-05
4882.0 5e-05
4884.0 -0.0002
4886.0 -0.00045
4888.0 0.00055
4890.0 0.0001
4892.0 0.00065
4894.0 -0.00015
4896.0 -5e-05
4898.0 -5e-05
4900.0 -0.0005
4902.0 0.0005
4904.0 0.00015
4906.0 -0.00025
4908.0 -0.0004
4910.0 0.00045
4912.0 0.0
4914.0 0.0003
4916.0 -5e-05
4918.0 0.00015
4920.0 -0.0002
4922.0 0.00025
4924.0 0.0006
4926.0 0.0007
4928.0 -0.00045
4930.0 0.0
4932.0 0.0004
4934.0 -0.00035
4936.0 -0.00015
4938.0 0.00035
4940.0 5e-05
4942.0 0.0004
4944.0 -5e-05
4946.0 0.00065
4948.0 5e-05
4950.0 -0.00025
4952.0 -0.00035
4954.0 -0.00015
4956.0 -0.0002
4958.0 -0.00015
4960.0 0.00055
4962.0 0.0004
4964.0 -0.00045
4966.0 0.0001
4968.0 -0.00015
4970.0 0.0004
4972.0 0.00035
4974.0 0.00035
4976.0 0.0005
4978.0 0.0002
4980.0 0.0
4982.0 0.0002
4984.0 0.0
4986.0 -0.00015
4988.0 -5e-05
4990.0 -0.0006
4992.0 0.0001
4994.0 0.0001
4996.0 -5e-05
4998.0 5e-05
5000.0 0.00015
